# t SFR(t) (Msol/yr) l90_SFR u90_SFR
        1e+06    0.0177857  1.39009e-41      98.5595
        2e+06    0.0180018  1.53008e-41      98.6346
        3e+06    0.0182298  1.69095e-41       98.713
        4e+06    0.0184608  1.86891e-41      98.7915
        5e+06    0.0186947  2.06537e-41        98.87
        6e+06    0.0189315  2.28258e-41      98.9485
        7e+06    0.0191713  2.52262e-41      99.0272
        8e+06    0.0194142  2.78802e-41      99.1058
        9e+06    0.0196602  3.08118e-41      99.1846
        1e+07    0.0199092   3.4053e-41      99.2634
      1.1e+07    0.0201615  3.76347e-41      99.3423
      1.2e+07    0.0204169  4.15919e-41      99.4212
      1.3e+07    0.0206755  4.59668e-41      99.5002
      1.4e+07    0.0209375  5.08013e-41      99.5793
      1.5e+07    0.0212027   5.6143e-41      99.6584
      1.6e+07    0.0214714  6.20481e-41      99.7376
      1.7e+07    0.0217434  6.85739e-41      99.8169
      1.8e+07    0.0220188   7.5785e-41      99.8962
      1.9e+07    0.0222978  8.37556e-41      99.9756
        2e+07    0.0225803  9.25642e-41      100.055
      2.1e+07    0.0228663    1.023e-40      100.135
      2.2e+07     0.023156   1.1306e-40      100.214
      2.3e+07    0.0234494   1.2495e-40      100.294
      2.4e+07    0.0237465  1.38091e-40      100.373
      2.5e+07    0.0240473  1.52614e-40      100.453
      2.6e+07     0.024352  1.68664e-40      100.533
      2.7e+07    0.0246605  1.86402e-40      100.613
      2.8e+07    0.0249729  2.06006e-40      100.693
      2.9e+07    0.0252893  2.27673e-40      100.773
        3e+07    0.0256096  2.51617e-40      100.853
      3.1e+07    0.0259341  2.78081e-40      100.933
      3.2e+07    0.0262626  3.07326e-40      101.013
      3.3e+07    0.0265954  3.39648e-40      101.094
      3.4e+07    0.0269323  3.75369e-40      101.174
      3.5e+07    0.0272735  4.14847e-40      101.254
      3.6e+07     0.027619  4.58477e-40      101.335
      3.7e+07    0.0279689  5.06696e-40      101.415
      3.8e+07    0.0283233  5.59984e-40      101.496
      3.9e+07    0.0286821  6.18879e-40      101.577
        4e+07    0.0290454  6.83967e-40      101.657
      4.1e+07    0.0294134    7.559e-40      101.738
      4.2e+07     0.029786  8.35398e-40      101.819
      4.3e+07    0.0301634  9.23258e-40        101.9
      4.4e+07    0.0305455  1.02036e-39      101.981
      4.5e+07    0.0309325  1.12767e-39      102.062
      4.6e+07    0.0313244  1.24627e-39      102.143
      4.7e+07    0.0317212  1.37734e-39      102.224
      4.8e+07    0.0321231   1.5222e-39      102.305
      4.9e+07    0.0325301  1.68229e-39      102.387
        5e+07    0.0329422  1.85921e-39      102.468
      5.1e+07    0.0333595  2.05475e-39      102.549
      5.2e+07    0.0337822  2.27085e-39      102.631
      5.3e+07    0.0342101  2.50968e-39      102.712
      5.4e+07    0.0346435  2.77362e-39      102.794
      5.5e+07    0.0350824  3.06533e-39      102.876
      5.6e+07    0.0355269  3.38771e-39      102.957
      5.7e+07     0.035977    3.744e-39      103.039
      5.8e+07    0.0364328  4.13776e-39      103.121
      5.9e+07    0.0368943  4.57293e-39      103.203
        6e+07    0.0373617  5.05387e-39      103.285
      6.1e+07    0.0378351  5.58539e-39      103.367
      6.2e+07    0.0383144  6.17281e-39      103.449
      6.3e+07    0.0387998  6.82201e-39      103.532
      6.4e+07    0.0392913  7.53949e-39      103.614
      6.5e+07    0.0397891  8.33242e-39      103.696
      6.6e+07    0.0402932  9.20875e-39      103.779
      6.7e+07    0.0408036  1.01772e-38      103.861
      6.8e+07    0.0413206  1.12476e-38      103.944
      6.9e+07    0.0418441  1.24305e-38      104.026
        7e+07    0.0423742  1.37378e-38      104.109
      7.1e+07     0.042911  1.51827e-38      104.192
      7.2e+07    0.0434546  1.67794e-38      104.274
      7.3e+07    0.0440052  1.85441e-38      104.357
      7.4e+07    0.0445627  2.04944e-38       104.44
      7.5e+07    0.0451272  2.26499e-38      104.523
      7.6e+07    0.0456989   2.5032e-38      104.606
      7.7e+07    0.0462779  2.76646e-38      104.689
      7.8e+07    0.0468642  3.05741e-38      104.772
      7.9e+07    0.0474579  3.37896e-38      104.856
        8e+07    0.0480591  3.73433e-38      104.939
      8.1e+07     0.048668  4.12707e-38      105.022
      8.2e+07    0.0492845  4.56112e-38      105.106
      8.3e+07    0.0499089  5.04082e-38      105.189
      8.4e+07    0.0505412  5.57097e-38      105.273
      8.5e+07    0.0511815  6.15687e-38      105.357
      8.6e+07    0.0518299   6.8044e-38       105.44
      8.7e+07    0.0524865  7.52002e-38      105.524
      8.8e+07    0.0531515  8.31091e-38      105.608
      8.9e+07    0.0538248  9.18497e-38      105.692
        9e+07    0.0545067   1.0151e-37      105.776
      9.1e+07    0.0551973  1.12186e-37       105.86
      9.2e+07    0.0558966  1.23984e-37      105.944
      9.3e+07    0.0566047  1.37024e-37      106.028
      9.4e+07    0.0573218  1.51435e-37      106.113
      9.5e+07     0.058048  1.67361e-37      106.197
      9.6e+07    0.0587834  1.84963e-37      106.281
      9.7e+07    0.0595281  2.04415e-37      106.366
      9.8e+07    0.0602823  2.25914e-37       106.45
      9.9e+07     0.061046  2.49673e-37      106.535
        1e+08    0.0618194  2.75932e-37       106.62
     1.01e+08    0.0626025  3.04952e-37      106.704
     1.02e+08    0.0633956  3.37024e-37      106.789
     1.03e+08    0.0641988  3.72469e-37      106.874
     1.04e+08    0.0650121  4.11642e-37      106.959
     1.05e+08    0.0658357  4.54935e-37      107.044
     1.06e+08    0.0666698  5.02781e-37      107.129
     1.07e+08    0.0675144  5.55659e-37      107.214
     1.08e+08    0.0683698  6.14098e-37      107.299
     1.09e+08    0.0692359  6.78683e-37      107.384
      1.1e+08    0.0701131  7.50061e-37       107.47
     1.11e+08    0.0710013  8.28945e-37      107.555
     1.12e+08    0.0719008  9.16126e-37      107.641
     1.13e+08    0.0728117  1.01248e-36      107.726
     1.14e+08    0.0737342  1.11896e-36      107.812
     1.15e+08    0.0746683  1.23664e-36      107.897
     1.16e+08    0.0756142   1.3667e-36      107.983
     1.17e+08    0.0765722  1.51044e-36      108.069
     1.18e+08    0.0775423  1.66929e-36      108.155
     1.19e+08    0.0785246  1.84485e-36      108.241
      1.2e+08    0.0795195  2.03888e-36      108.327
     1.21e+08    0.0805269  2.25331e-36      108.413
     1.22e+08    0.0815471  2.49029e-36      108.499
     1.23e+08    0.0825802  2.75219e-36      108.585
     1.24e+08    0.0836264  3.04165e-36      108.672
     1.25e+08    0.0846858  3.36154e-36      108.758
     1.26e+08    0.0857587  3.71507e-36      108.844
     1.27e+08    0.0868451  4.10579e-36      108.931
     1.28e+08    0.0879454   4.5376e-36      109.017
     1.29e+08    0.0890595  5.01483e-36      109.104
      1.3e+08    0.0901878  5.54224e-36      109.191
     1.31e+08    0.0913304  6.12512e-36      109.278
     1.32e+08    0.0924874  6.76931e-36      109.364
     1.33e+08    0.0936591  7.48124e-36      109.451
     1.34e+08    0.0948457  8.26805e-36      109.538
     1.35e+08    0.0960473  9.13761e-36      109.625
     1.36e+08    0.0972641  1.00986e-35      109.712
     1.37e+08    0.0984963  1.11607e-35        109.8
     1.38e+08    0.0997441  1.23345e-35      109.887
     1.39e+08     0.101008  1.36317e-35      109.974
      1.4e+08     0.102287  1.50654e-35      110.062
     1.41e+08     0.103583  1.66498e-35      110.149
     1.42e+08     0.104896  1.84009e-35      110.237
     1.43e+08     0.106224  2.03361e-35      110.324
     1.44e+08      0.10757  2.24749e-35      110.412
     1.45e+08     0.108933  2.48386e-35        110.5
     1.46e+08     0.110313  2.74509e-35      110.587
     1.47e+08     0.111711  3.03379e-35      110.675
     1.48e+08     0.113126  3.35286e-35      110.763
     1.49e+08     0.114559  3.70548e-35      110.851
      1.5e+08      0.11601  4.09519e-35      110.939
     1.51e+08      0.11748  4.52589e-35      111.027
     1.52e+08     0.118968  5.00188e-35      111.116
     1.53e+08     0.120476  5.52793e-35      111.204
     1.54e+08     0.122002  6.10931e-35      111.292
     1.55e+08     0.123547  6.75183e-35      111.381
     1.56e+08     0.125113  7.46193e-35      111.469
     1.57e+08     0.126698   8.2467e-35      111.558
     1.58e+08     0.128303  9.11402e-35      111.646
     1.59e+08     0.129928  1.00725e-34      111.735
      1.6e+08     0.131574  1.11319e-34      111.824
     1.61e+08     0.133241  1.23026e-34      111.913
     1.62e+08     0.134929  1.35965e-34      112.002
     1.63e+08     0.136639  1.50265e-34      112.091
     1.64e+08      0.13837  1.66068e-34       112.18
     1.65e+08     0.140123  1.83534e-34      112.269
     1.66e+08     0.141898  2.02836e-34      112.358
     1.67e+08     0.143696  2.24169e-34      112.448
     1.68e+08     0.145516  2.47745e-34      112.537
     1.69e+08     0.147359    2.738e-34      112.626
      1.7e+08     0.149226  3.02596e-34      112.716
     1.71e+08     0.151117   3.3442e-34      112.805
     1.72e+08     0.153031  3.69592e-34      112.895
     1.73e+08      0.15497  4.08462e-34      112.985
     1.74e+08     0.156933   4.5142e-34      113.074
     1.75e+08     0.158922  4.98896e-34      113.164
     1.76e+08     0.160935  5.51366e-34      113.254
     1.77e+08     0.162974  6.09354e-34      113.344
     1.78e+08     0.165038   6.7344e-34      113.434
     1.79e+08     0.167129  7.44266e-34      113.524
      1.8e+08     0.169247  8.22541e-34      113.615
     1.81e+08     0.171391  9.09049e-34      113.705
     1.82e+08     0.173562  1.00465e-33      113.795
     1.83e+08     0.175761  1.11031e-33      113.886
     1.84e+08     0.177988  1.22709e-33      113.976
     1.85e+08     0.180242  1.35614e-33      114.067
     1.86e+08     0.182526  1.49877e-33      114.157
     1.87e+08     0.184838  1.65639e-33      114.248
     1.88e+08      0.18718   1.8306e-33      114.339
     1.89e+08     0.189551  2.02312e-33       114.43
      1.9e+08     0.191953   2.2359e-33      114.521
     1.91e+08     0.194385  2.47105e-33      114.612
     1.92e+08     0.196847  2.73093e-33      114.703
     1.93e+08     0.199341  3.01815e-33      114.794
     1.94e+08     0.201866  3.33557e-33      114.885
     1.95e+08     0.204424  3.68637e-33      114.976
     1.96e+08     0.207014  4.07407e-33      115.068
     1.97e+08     0.209636  4.50255e-33      115.159
     1.98e+08     0.212292  4.97608e-33      115.251
     1.99e+08     0.214982  5.49942e-33      115.342
        2e+08     0.217705   6.0778e-33      115.434
     2.01e+08     0.220463  6.71701e-33      115.526
     2.02e+08     0.223256  7.42345e-33      115.618
     2.03e+08     0.226085  8.20418e-33      115.709
     2.04e+08     0.228949  9.06702e-33      115.801
     2.05e+08     0.231849  1.00206e-32      115.893
     2.06e+08     0.234787  1.10745e-32      115.986
     2.07e+08     0.237761  1.22392e-32      116.078
     2.08e+08     0.240773  1.35264e-32       116.17
     2.09e+08     0.243824   1.4949e-32      116.262
      2.1e+08     0.246913  1.65212e-32      116.355
     2.11e+08     0.250041  1.82587e-32      116.447
     2.12e+08     0.253208   2.0179e-32       116.54
     2.13e+08     0.256416  2.23013e-32      116.632
     2.14e+08     0.259665  2.46467e-32      116.725
     2.15e+08     0.262954  2.72388e-32      116.818
     2.16e+08     0.266286  3.01036e-32       116.91
     2.17e+08     0.269659  3.32696e-32      117.003
     2.18e+08     0.273076  3.67686e-32      117.096
     2.19e+08     0.276535  4.06356e-32      117.189
      2.2e+08     0.280038  4.49092e-32      117.283
     2.21e+08     0.283586  4.96324e-32      117.376
     2.22e+08     0.287179  5.48523e-32      117.469
     2.23e+08     0.290817  6.06211e-32      117.562
     2.24e+08     0.294501  6.69967e-32      117.656
     2.25e+08     0.298232  7.40428e-32      117.749
     2.26e+08     0.302011    8.183e-32      117.843
     2.27e+08     0.305837  9.04361e-32      117.936
     2.28e+08     0.309711  9.99473e-32       118.03
     2.29e+08     0.313635  1.10459e-31      118.124
      2.3e+08     0.317608  1.22076e-31      118.218
     2.31e+08     0.321632  1.34915e-31      118.312
     2.32e+08     0.325707  1.49104e-31      118.406
     2.33e+08     0.329833  1.64785e-31        118.5
     2.34e+08     0.334012  1.82116e-31      118.594
     2.35e+08     0.338243  2.01269e-31      118.688
     2.36e+08     0.342528  2.22437e-31      118.783
     2.37e+08     0.346868  2.45831e-31      118.877
     2.38e+08     0.351262  2.71685e-31      118.971
     2.39e+08     0.355712  3.00258e-31      119.066
      2.4e+08     0.360219  3.31837e-31      119.161
     2.41e+08     0.364782  3.66736e-31      119.255
     2.42e+08     0.369404  4.05306e-31       119.35
     2.43e+08     0.374084  4.47933e-31      119.445
     2.44e+08     0.378823  4.95042e-31       119.54
     2.45e+08     0.383622  5.47106e-31      119.635
     2.46e+08     0.388482  6.04646e-31       119.73
     2.47e+08     0.393404  6.68237e-31      119.825
     2.48e+08     0.398388  7.38516e-31       119.92
     2.49e+08     0.403435  8.16187e-31      120.016
      2.5e+08     0.408546  9.02026e-31      120.111
     2.51e+08     0.413722  9.96893e-31      120.206
     2.52e+08     0.418963  1.10174e-30      120.302
     2.53e+08     0.424271  1.21761e-30      120.397
     2.54e+08     0.429646  1.34566e-30      120.493
     2.55e+08     0.435089  1.48719e-30      120.589
     2.56e+08     0.440601   1.6436e-30      120.685
     2.57e+08     0.446183  1.81646e-30      120.781
     2.58e+08     0.451836   2.0075e-30      120.877
     2.59e+08      0.45756  2.21863e-30      120.973
      2.6e+08     0.463357  2.45196e-30      121.069
     2.61e+08     0.469227  2.70984e-30      121.165
     2.62e+08     0.475171  2.99483e-30      121.261
     2.63e+08     0.481191   3.3098e-30      121.358
     2.64e+08     0.487287   3.6579e-30      121.454
     2.65e+08     0.493461   4.0426e-30      121.551
     2.66e+08     0.499712  4.46776e-30      121.647
     2.67e+08     0.506043  4.93764e-30      121.744
     2.68e+08     0.512454  5.45694e-30      121.841
     2.69e+08     0.518946  6.03085e-30      121.937
      2.7e+08     0.525521  6.66512e-30      122.034
     2.71e+08     0.532178   7.3661e-30      122.131
     2.72e+08      0.53892   8.1408e-30      122.228
     2.73e+08     0.545748  8.99697e-30      122.325
     2.74e+08     0.552662  9.94319e-30      122.423
     2.75e+08     0.559663  1.09889e-29       122.52
     2.76e+08     0.566754  1.21446e-29      122.617
     2.77e+08     0.573934  1.34219e-29      122.715
     2.78e+08     0.581205  1.48335e-29      122.812
     2.79e+08     0.588568  1.63936e-29       122.91
      2.8e+08     0.596025  1.81177e-29      123.008
     2.81e+08     0.603576  2.00231e-29      123.105
     2.82e+08     0.611222   2.2129e-29      123.203
     2.83e+08     0.618966  2.44563e-29      123.301
     2.84e+08     0.626807  2.70284e-29      123.399
     2.85e+08     0.634748   2.9871e-29      123.497
     2.86e+08      0.64279  3.30126e-29      123.595
     2.87e+08     0.650933  3.64845e-29      123.693
     2.88e+08      0.65918  4.03216e-29      123.792
     2.89e+08     0.667531  4.45623e-29       123.89
      2.9e+08     0.675987   4.9249e-29      123.988
     2.91e+08     0.684551  5.44285e-29      124.087
     2.92e+08     0.693224  6.01528e-29      124.186
     2.93e+08     0.702006  6.64791e-29      124.284
     2.94e+08       0.7109  7.34708e-29      124.383
     2.95e+08     0.719906  8.11978e-29      124.482
     2.96e+08     0.729026  8.97374e-29      124.581
     2.97e+08     0.738262  9.91752e-29       124.68
     2.98e+08     0.747615  1.09606e-28      124.779
     2.99e+08     0.757087  1.21133e-28      124.878
        3e+08     0.766678  1.33873e-28      124.977
     3.01e+08     0.776391  1.47952e-28      125.077
     3.02e+08     0.786227  1.63512e-28      125.176
     3.03e+08     0.796188  1.80709e-28      125.275
     3.04e+08     0.806274  1.99714e-28      125.375
     3.05e+08     0.816489  2.20718e-28      125.475
     3.06e+08     0.826833  2.43932e-28      125.574
     3.07e+08     0.837308  2.69586e-28      125.674
     3.08e+08     0.847915  2.97939e-28      125.774
     3.09e+08     0.858658  3.29273e-28      125.874
      3.1e+08     0.869536  3.63903e-28      125.974
     3.11e+08     0.880552  4.02175e-28      126.074
     3.12e+08     0.891707  4.44472e-28      126.174
     3.13e+08     0.903004  4.91218e-28      126.275
     3.14e+08     0.914444   5.4288e-28      126.375
     3.15e+08     0.926029  5.99975e-28      126.475
     3.16e+08     0.937761  6.63075e-28      126.576
     3.17e+08     0.949641  7.32811e-28      126.676
     3.18e+08     0.961672  8.09882e-28      126.777
     3.19e+08     0.973855  8.95058e-28      126.878
      3.2e+08     0.986193  9.89192e-28      126.979
     3.21e+08     0.998687  1.09323e-27       127.08
     3.22e+08      1.01134   1.2082e-27       127.18
     3.23e+08      1.02415  1.33527e-27      127.282
     3.24e+08      1.03713   1.4757e-27      127.383
     3.25e+08      1.05027   1.6309e-27      127.484
     3.26e+08      1.06357  1.80242e-27      127.585
     3.27e+08      1.07705  1.99199e-27      127.687
     3.28e+08      1.09069  2.20149e-27      127.788
     3.29e+08      1.10451  2.43302e-27       127.89
      3.3e+08       1.1185   2.6889e-27      127.991
     3.31e+08      1.13267   2.9717e-27      128.093
     3.32e+08      1.14702  3.28423e-27      128.195
     3.33e+08      1.16155  3.62964e-27      128.297
     3.34e+08      1.17627  4.01137e-27      128.399
     3.35e+08      1.19117  4.43325e-27      128.501
     3.36e+08      1.20626   4.8995e-27      128.603
     3.37e+08      1.22154  5.41478e-27      128.705
     3.38e+08      1.23702  5.98426e-27      128.807
     3.39e+08      1.25269  6.61363e-27       128.91
      3.4e+08      1.26856  7.30919e-27      129.012
     3.41e+08      1.28463  8.07791e-27      129.114
     3.42e+08      1.30091  8.92747e-27      129.217
     3.43e+08      1.31739  9.86638e-27       129.32
     3.44e+08      1.33408   1.0904e-26      129.423
     3.45e+08      1.35098  1.20508e-26      129.525
     3.46e+08      1.36809  1.33182e-26      129.628
     3.47e+08      1.38542  1.47189e-26      129.731
     3.48e+08      1.40298  1.62669e-26      129.834
     3.49e+08      1.42075  1.79777e-26      129.938
      3.5e+08      1.43875  1.98684e-26      130.041
     3.51e+08      1.45698   2.1958e-26      130.144
     3.52e+08      1.47543  2.42674e-26      130.248
     3.53e+08      1.49413  2.68196e-26      130.351
     3.54e+08      1.51306  2.96402e-26      130.455
     3.55e+08      1.53222  3.27575e-26      130.558
     3.56e+08      1.55164  3.62027e-26      130.662
     3.57e+08      1.57129  4.00101e-26      130.766
     3.58e+08       1.5912   4.4218e-26       130.87
     3.59e+08      1.61136  4.88685e-26      130.974
      3.6e+08      1.63177   5.4008e-26      131.078
     3.61e+08      1.65245  5.96881e-26      131.182
     3.62e+08      1.67338  6.59656e-26      131.286
     3.63e+08      1.69458  7.29032e-26      131.391
     3.64e+08      1.71605  8.05705e-26      131.495
     3.65e+08      1.73779  8.90442e-26        131.6
     3.66e+08       1.7598  9.84091e-26      131.704
     3.67e+08       1.7821  1.08759e-25      131.809
     3.68e+08      1.80468  1.20197e-25      131.913
     3.69e+08      1.82754  1.32838e-25      132.018
      3.7e+08      1.85069  1.46809e-25      132.123
     3.71e+08      1.87414  1.62249e-25      132.228
     3.72e+08      1.89788  1.79313e-25      132.333
     3.73e+08      1.92192  1.98171e-25      132.438
     3.74e+08      1.94627  2.19013e-25      132.544
     3.75e+08      1.97093  2.42047e-25      132.649
     3.76e+08       1.9959  2.67504e-25      132.754
     3.77e+08      2.02119  2.95637e-25       132.86
     3.78e+08      2.04679   3.2673e-25      132.965
     3.79e+08      2.07272  3.61092e-25      133.071
      3.8e+08      2.09898  3.99068e-25      133.177
     3.81e+08      2.12557  4.41039e-25      133.283
     3.82e+08       2.1525  4.87423e-25      133.389
     3.83e+08      2.17977  5.38686e-25      133.495
     3.84e+08      2.20739   5.9534e-25      133.601
     3.85e+08      2.23535  6.57953e-25      133.707
     3.86e+08      2.26367   7.2715e-25      133.813
     3.87e+08      2.29235  8.03625e-25      133.919
     3.88e+08      2.32139  8.88143e-25      134.026
     3.89e+08       2.3508   9.8155e-25      134.132
      3.9e+08      2.38058  1.08478e-24      134.239
     3.91e+08      2.41074  1.19887e-24      134.346
     3.92e+08      2.44128  1.32495e-24      134.452
     3.93e+08      2.47221   1.4643e-24      134.559
     3.94e+08      2.50353   1.6183e-24      134.666
     3.95e+08      2.53525   1.7885e-24      134.773
     3.96e+08      2.56736   1.9766e-24       134.88
     3.97e+08      2.59989  2.18448e-24      134.987
     3.98e+08      2.63283  2.41422e-24      135.095
     3.99e+08      2.66618  2.66813e-24      135.202
        4e+08      2.69996  2.94874e-24       135.31
     4.01e+08      2.73416  3.25886e-24      135.417
     4.02e+08       2.7688   3.6016e-24      135.525
     4.03e+08      2.80388  3.98038e-24      135.632
     4.04e+08       2.8394    4.399e-24       135.74
     4.05e+08      2.87538  4.86165e-24      135.848
     4.06e+08       2.9118  5.37295e-24      135.956
     4.07e+08      2.94869  5.93803e-24      136.064
     4.08e+08      2.98605  6.56254e-24      136.172
     4.09e+08      3.02388  7.25273e-24       136.28
      4.1e+08      3.06219   8.0155e-24      136.389
     4.11e+08      3.10098   8.8585e-24      136.497
     4.12e+08      3.14027  9.79016e-24      136.605
     4.13e+08      3.18005  1.08198e-23      136.714
     4.14e+08      3.22034  1.19577e-23      136.823
     4.15e+08      3.26114  1.32153e-23      136.931
     4.16e+08      3.30245  1.46052e-23       137.04
     4.17e+08      3.34429  1.61412e-23      137.149
     4.18e+08      3.38666  1.78388e-23      137.258
     4.19e+08      3.42956   1.9715e-23      137.367
      4.2e+08      3.47301  2.17884e-23      137.476
     4.21e+08      3.51701  2.40799e-23      137.586
     4.22e+08      3.56157  2.66124e-23      137.695
     4.23e+08      3.60669  2.94113e-23      137.804
     4.24e+08      3.65238  3.25045e-23      137.914
     4.25e+08      3.69865   3.5923e-23      138.023
     4.26e+08      3.74551   3.9701e-23      138.133
     4.27e+08      3.79296  4.38764e-23      138.243
     4.28e+08      3.84101   4.8491e-23      138.353
     4.29e+08      3.88967  5.35908e-23      138.463
      4.3e+08      3.93895   5.9227e-23      138.573
     4.31e+08      3.98885   6.5456e-23      138.683
     4.32e+08      4.03939    7.234e-23      138.793
     4.33e+08      4.09056  7.99481e-23      138.903
     4.34e+08      4.14238  8.83563e-23      139.014
     4.35e+08      4.19486  9.76488e-23      139.124
     4.36e+08      4.24801  1.07919e-22      139.235
     4.37e+08      4.30182  1.19269e-22      139.345
     4.38e+08      4.35632  1.31812e-22      139.456
     4.39e+08      4.41151  1.45675e-22      139.567
      4.4e+08       4.4674  1.60996e-22      139.678
     4.41e+08        4.524  1.77928e-22      139.789
     4.42e+08      4.58131  1.96641e-22        139.9
     4.43e+08      4.63935  2.17321e-22      140.011
     4.44e+08      4.69813  2.40177e-22      140.122
     4.45e+08      4.75765  2.65437e-22      140.234
     4.46e+08      4.81792  2.93353e-22      140.345
     4.47e+08      4.87896  3.24205e-22      140.457
     4.48e+08      4.94077  3.58302e-22      140.568
     4.49e+08      5.00336  3.95985e-22       140.68
      4.5e+08      5.06675  4.37632e-22      140.792
     4.51e+08      5.13094  4.83658e-22      140.904
     4.52e+08      5.19594  5.34524e-22      141.016
     4.53e+08      5.26177  5.90741e-22      141.128
     4.54e+08      5.32843   6.5287e-22       141.24
     4.55e+08      5.39593  7.21533e-22      141.352
     4.56e+08      5.46429  7.97417e-22      141.464
     4.57e+08      5.53352  8.81282e-22      141.577
     4.58e+08      5.60362  9.73967e-22      141.689
     4.59e+08      5.67461   1.0764e-21      141.802
      4.6e+08      5.74651  1.18961e-21      141.914
     4.61e+08      5.81931  1.31472e-21      142.027
     4.62e+08      5.89303  1.45299e-21       142.14
     4.63e+08      5.96769   1.6058e-21      142.253
     4.64e+08      6.04329  1.77468e-21      142.366
     4.65e+08      6.11985  1.96133e-21      142.479
     4.66e+08      6.19738   2.1676e-21      142.592
     4.67e+08       6.2759  2.39557e-21      142.706
     4.68e+08      6.35541  2.64752e-21      142.819
     4.69e+08      6.43592  2.92596e-21      142.933
      4.7e+08      6.51746  3.23368e-21      143.046
     4.71e+08      6.60003  3.57377e-21       143.16
     4.72e+08      6.68364  3.94963e-21      143.274
     4.73e+08      6.76832  4.36502e-21      143.387
     4.74e+08      6.85406  4.82409e-21      143.501
     4.75e+08      6.94089  5.33144e-21      143.615
     4.76e+08      7.02883  5.89216e-21       143.73
     4.77e+08      7.11787  6.51184e-21      143.844
     4.78e+08      7.20805   7.1967e-21      143.958
     4.79e+08      7.29937  7.95358e-21      144.073
      4.8e+08      7.39184  8.79007e-21      144.187
     4.81e+08      7.48549  9.71453e-21      144.302
     4.82e+08      7.58032  1.07362e-20      144.416
     4.83e+08      7.67635  1.18653e-20      144.531
     4.84e+08       7.7736  1.31132e-20      144.646
     4.85e+08      7.87209  1.44924e-20      144.761
     4.86e+08      7.97182  1.60165e-20      144.876
     4.87e+08      8.07281   1.7701e-20      144.991
     4.88e+08      8.17508  1.95627e-20      145.106
     4.89e+08      8.27865  2.16201e-20      145.221
      4.9e+08      8.38353  2.38939e-20      145.337
     4.91e+08      8.48974  2.64068e-20      145.452
     4.92e+08       8.5973   2.9184e-20      145.568
     4.93e+08      8.70622  3.22534e-20      145.684
     4.94e+08      8.81651  3.56455e-20      145.799
     4.95e+08      8.92821  3.93943e-20      145.915
     4.96e+08      9.04132  4.35375e-20      146.031
     4.97e+08      9.15586  4.81164e-20      146.147
     4.98e+08      9.27186  5.31768e-20      146.263
     4.99e+08      9.38932  5.87695e-20       146.38
        5e+08      9.50827  6.49503e-20      146.496
     5.01e+08      9.62873  7.17812e-20      146.612
     5.02e+08      9.75071  7.93305e-20      146.729
     5.03e+08      9.87424  8.76737e-20      146.845
     5.04e+08      9.99934  9.68945e-20      146.962
     5.05e+08       10.126  1.07085e-19      147.079
     5.06e+08      10.2543  1.18347e-19      147.196
     5.07e+08      10.3842  1.30794e-19      147.313
     5.08e+08      10.5158   1.4455e-19       147.43
     5.09e+08       10.649  1.59752e-19      147.547
      5.1e+08      10.7839  1.76553e-19      147.664
     5.11e+08      10.9205  1.95121e-19      147.782
     5.12e+08      11.0589  2.15643e-19      147.899
     5.13e+08       11.199  2.38322e-19      148.017
     5.14e+08      11.3409  2.63386e-19      148.134
     5.15e+08      11.4845  2.91087e-19      148.252
     5.16e+08        11.63  3.21701e-19       148.37
     5.17e+08      11.7774  3.55534e-19      148.488
     5.18e+08      11.9266  3.92926e-19      148.606
     5.19e+08      12.0777  4.34251e-19      148.724
      5.2e+08      12.2307  4.79921e-19      148.842
     5.21e+08      12.3856  5.30395e-19       148.96
     5.22e+08      12.5425  5.86177e-19      149.078
     5.23e+08      12.7014  6.47826e-19      149.197
     5.24e+08      12.8623  7.15959e-19      149.315
     5.25e+08      13.0253  7.91257e-19      149.434
     5.26e+08      13.1903  8.74474e-19      149.553
     5.27e+08      13.3574  9.66443e-19      149.672
     5.28e+08      13.5266  1.06808e-18      149.791
     5.29e+08       13.698  1.18042e-18       149.91
      5.3e+08      13.8715  1.30456e-18      150.029
     5.31e+08      14.0473  1.44176e-18      150.148
     5.32e+08      14.2252   1.5934e-18      150.267
     5.33e+08      14.4055  1.76097e-18      150.387
     5.34e+08       14.588  1.94618e-18      150.506
     5.35e+08      14.7728  2.15086e-18      150.626
     5.36e+08      14.9599  2.37707e-18      150.746
     5.37e+08      15.1495  2.62706e-18      150.865
     5.38e+08      15.3414  2.90335e-18      150.985
     5.39e+08      15.5357   3.2087e-18      151.105
      5.4e+08      15.7326  3.54617e-18      151.225
     5.41e+08      15.9319  3.91912e-18      151.345
     5.42e+08      16.1337   4.3313e-18      151.466
     5.43e+08      16.3381  4.78682e-18      151.586
     5.44e+08      16.5451  5.29026e-18      151.707
     5.45e+08      16.7547  5.84664e-18      151.827
     5.46e+08       16.967  6.46154e-18      151.948
     5.47e+08      17.1819   7.1411e-18      152.068
     5.48e+08      17.3996  7.89214e-18      152.189
     5.49e+08        17.62  8.72216e-18       152.31
      5.5e+08      17.8432  9.63948e-18      152.431
     5.51e+08      18.0693  1.06533e-17      152.552
     5.52e+08      18.2982  1.17737e-17      152.674
     5.53e+08        18.53  1.30119e-17      152.795
     5.54e+08      18.7648  1.43804e-17      152.916
     5.55e+08      19.0025  1.58928e-17      153.038
     5.56e+08      19.2432  1.75643e-17       153.16
     5.57e+08       19.487  1.94115e-17      153.281
     5.58e+08      19.7339  2.14531e-17      153.403
     5.59e+08      19.9839  2.37093e-17      153.525
      5.6e+08      20.2371  2.62028e-17      153.647
     5.61e+08      20.4935  2.89586e-17      153.769
     5.62e+08      20.7531  3.20042e-17      153.891
     5.63e+08       21.016  3.53701e-17      154.013
     5.64e+08      21.2823    3.909e-17      154.136
     5.65e+08      21.5519  4.32011e-17      154.258
     5.66e+08      21.8249  4.77446e-17      154.381
     5.67e+08      22.1014   5.2766e-17      154.504
     5.68e+08      22.3814  5.83154e-17      154.626
     5.69e+08       22.665  6.44485e-17      154.749
      5.7e+08      22.9521  7.12266e-17      154.872
     5.71e+08      23.2429  7.87176e-17      154.995
     5.72e+08      23.5373  8.69964e-17      155.118
     5.73e+08      23.8355  9.61459e-17      155.242
     5.74e+08      24.1375  1.06258e-16      155.371
     5.75e+08      24.4433  1.17433e-16      155.567
     5.76e+08       24.753  1.29783e-16      155.763
     5.77e+08      25.0666  1.43433e-16      155.959
     5.78e+08      25.3841  1.58518e-16      156.884
     5.79e+08      25.7057  1.75189e-16      157.877
      5.8e+08      26.0314  1.93614e-16      158.877
     5.81e+08      26.3611  2.13977e-16      159.882
     5.82e+08      26.6951  2.36481e-16      160.894
     5.83e+08      27.0333  2.61352e-16      161.913
     5.84e+08      27.3758  2.88838e-16      162.937
     5.85e+08      27.7226  3.19216e-16      165.343
     5.86e+08      28.0738  3.52788e-16      168.675
     5.87e+08      28.4295  3.89891e-16      172.074
     5.88e+08      28.7897  4.30896e-16      175.542
     5.89e+08      29.1544  4.76214e-16       179.08
      5.9e+08      29.5237  5.26298e-16      182.689
     5.91e+08      29.8978  5.81649e-16       186.37
     5.92e+08      30.2765  6.42821e-16      190.126
     5.93e+08      30.6601  7.10428e-16      193.958
     5.94e+08      31.0485  7.85144e-16      197.867
     5.95e+08      31.4419  8.67718e-16      201.854
     5.96e+08      31.8402  9.58977e-16      205.922
     5.97e+08      32.2436  1.05983e-15      210.072
     5.98e+08      32.6521   1.1713e-15      214.306
     5.99e+08      33.0657  1.29448e-15      218.625
        6e+08      33.4846  1.43063e-15      223.031
     6.01e+08      33.9089  1.58109e-15      227.525
     6.02e+08      34.3384  1.74737e-15      232.111
     6.03e+08      34.7735  1.93114e-15      236.788
     6.04e+08       35.214  2.13424e-15      241.561
     6.05e+08      35.6601   2.3587e-15      246.429
     6.06e+08      36.1119  2.60677e-15      251.395
     6.07e+08      36.5694  2.88093e-15      256.461
     6.08e+08      37.0327  3.18392e-15       261.63
     6.09e+08      37.5019  3.51877e-15      266.902
      6.1e+08       37.977  3.88884e-15      272.281
     6.11e+08      38.4581  4.29784e-15      277.769
     6.12e+08      38.9453  4.74984e-15      283.366
     6.13e+08      39.4387  5.24939e-15      289.077
     6.14e+08      39.9383  5.80147e-15      294.903
     6.15e+08      40.4443  6.41162e-15      300.846
     6.16e+08      40.9567  7.08593e-15      306.909
     6.17e+08      41.4756  7.83117e-15      313.094
     6.18e+08       42.001  8.65478e-15      319.404
     6.19e+08      42.5331  9.56501e-15      325.841
      6.2e+08       43.072   1.0571e-14      332.408
     6.21e+08      43.6176  1.16827e-14      339.107
     6.22e+08      44.1702  1.29114e-14      345.941
     6.23e+08      44.7298  1.42693e-14      352.912
     6.24e+08      45.2965    1.577e-14      360.025
     6.25e+08      45.8703  1.74286e-14       367.28
     6.26e+08      46.4514  1.92616e-14      374.682
     6.27e+08      47.0399  2.12873e-14      382.233
     6.28e+08      47.6359  2.35261e-14      389.936
     6.29e+08      48.2394  2.60004e-14      397.795
      6.3e+08      48.8505  2.87349e-14      405.811
     6.31e+08      49.4694   3.1757e-14       413.99
     6.32e+08      50.0961  3.50969e-14      422.333
     6.33e+08      50.7308   3.8788e-14      430.844
     6.34e+08      51.3735  4.28674e-14      439.527
     6.35e+08      52.0243  4.73758e-14      448.385
     6.36e+08      52.6834  5.23584e-14      457.421
     6.37e+08      53.3508  5.78649e-14      466.639
     6.38e+08      54.0267  6.39506e-14      476.044
     6.39e+08      54.7112  7.06764e-14      485.637
      6.4e+08      55.4043  7.81095e-14      495.424
     6.41e+08      56.1062  8.63243e-14      505.409
     6.42e+08       56.817  9.54032e-14      515.594
     6.43e+08      57.5368  1.05437e-13      525.985
     6.44e+08      58.2657  1.16526e-13      536.585
     6.45e+08      59.0039  1.28781e-13      547.399
     6.46e+08      59.7514  1.42325e-13      558.431
     6.47e+08      60.5084  1.57293e-13      569.685
     6.48e+08       61.275  1.73836e-13      581.166
     6.49e+08      62.0512  1.92118e-13      592.878
      6.5e+08      62.8374  2.12324e-13      604.826
     6.51e+08      63.6334  2.34654e-13      617.015
     6.52e+08      64.4396  2.59333e-13       629.45
     6.53e+08       65.256  2.86607e-13      643.139
     6.54e+08      66.0827   3.1675e-13      677.592
     6.55e+08      66.9199  3.50062e-13      748.855
     6.56e+08      67.7677  3.86879e-13      827.613
     6.57e+08      68.6262  4.27567e-13      914.653
     6.58e+08      69.4956            0       271.52
     6.59e+08       70.376  5.22232e-13      1005.79
      6.6e+08      71.2676  5.77155e-13      1000.77
     6.61e+08      72.1705  6.37855e-13      995.763
     6.62e+08      73.0848  7.04939e-13      990.785
     6.63e+08      74.0107  7.79078e-13      985.832
     6.64e+08      74.9483  8.61015e-13      980.903
     6.65e+08      75.8979  9.51568e-13      975.999
     6.66e+08      76.8594  1.05165e-12       971.12
     6.67e+08      77.8331  1.16225e-12      966.265
     6.68e+08      78.8192  1.28448e-12      961.434
     6.69e+08      79.8177  1.41957e-12      956.628
      6.7e+08      80.8289  1.56887e-12      951.845
     6.71e+08      81.8529  1.73387e-12      947.087
     6.72e+08      82.8899  1.91622e-12      942.352
     6.73e+08        83.94  2.11775e-12      937.641
     6.74e+08      85.0034  2.34048e-12      932.953
     6.75e+08      86.0803  2.58663e-12      928.289
     6.76e+08      87.1709  2.85867e-12      923.648
     6.77e+08      88.2752  3.15932e-12      919.031
     6.78e+08      89.3936  3.49159e-12      914.436
     6.79e+08      90.5261   3.8588e-12      909.865
      6.8e+08      91.6729  4.26463e-12      905.316
     6.81e+08      92.8343  4.71315e-12       900.79
     6.82e+08      94.0104  5.20884e-12      896.287
     6.83e+08      95.2014  5.75665e-12      891.806
     6.84e+08      96.4075  6.36209e-12      887.347
     6.85e+08      97.6289  7.03119e-12      882.911
     6.86e+08      98.8657  7.77067e-12      878.497
     6.87e+08      100.118  8.58792e-12      874.105
     6.88e+08      101.387  9.49112e-12      869.735
     6.89e+08      102.671  1.04893e-11      865.387
      6.9e+08      103.972  1.15925e-11      861.061
     6.91e+08      105.289  1.28117e-11      856.756
     6.92e+08      106.623  1.41591e-11      852.473
     6.93e+08      107.974  1.56482e-11      848.211
     6.94e+08      109.342  1.72939e-11      843.971
     6.95e+08      110.727  1.91128e-11      839.751
     6.96e+08       112.13  2.11229e-11      835.553
     6.97e+08       113.55  2.33444e-11      831.376
     6.98e+08      114.989  2.57995e-11       827.22
     6.99e+08      116.445  2.85129e-11      823.084
        7e+08      117.921  3.15116e-11      818.969
     7.01e+08      119.415  3.48257e-11      814.875
     7.02e+08      120.927  3.84884e-11      810.801
     7.03e+08      122.459  4.25362e-11      806.748
     7.04e+08      124.011  4.70098e-11      802.714
     7.05e+08      125.582  5.19539e-11      798.701
     7.06e+08      127.173  5.74179e-11      794.708
     7.07e+08      128.784  6.34566e-11      790.735
     7.08e+08      130.416  7.01304e-11      786.782
     7.09e+08      132.068  7.75061e-11      782.849
      7.1e+08      133.741  8.56575e-11      778.935
     7.11e+08      135.435  9.46661e-11      775.041
     7.12e+08      137.151  1.04622e-10      771.166
     7.13e+08      138.889  1.15625e-10      767.311
     7.14e+08      140.648  1.27786e-10      763.475
     7.15e+08       142.43  1.41225e-10      759.658
     7.16e+08      144.234  1.56078e-10       755.86
     7.17e+08      146.062  1.72493e-10      752.082
     7.18e+08      147.912  1.90634e-10      748.322
     7.19e+08      149.786  2.10683e-10      744.581
      7.2e+08      151.684  2.32841e-10      740.858
     7.21e+08      153.605  2.57329e-10      737.154
     7.22e+08      155.551  2.84393e-10      733.469
     7.23e+08      157.522  3.14303e-10      729.802
     7.24e+08      159.518  3.47358e-10      726.154
     7.25e+08      161.538   3.8389e-10      722.523
     7.26e+08      163.585  4.24264e-10      718.911
     7.27e+08      165.657  4.68884e-10      715.317
     7.28e+08      167.756  5.18197e-10      711.741
     7.29e+08      169.881  5.72697e-10      708.183
      7.3e+08      172.034  6.32928e-10      704.642
     7.31e+08      174.213  6.99493e-10       701.12
     7.32e+08       176.42   7.7306e-10      697.615
     7.33e+08      178.655  8.54363e-10      694.127
     7.34e+08      180.919  9.44217e-10      690.657
     7.35e+08      183.211  1.04352e-09      687.204
     7.36e+08      185.532  1.15327e-09      683.768
     7.37e+08      187.882  1.27456e-09       680.35
     7.38e+08      190.262  1.40861e-09      676.949
     7.39e+08      192.673  1.55675e-09      673.564
      7.4e+08      195.114  1.72048e-09      675.902
     7.41e+08      197.586  1.90142e-09      689.523
     7.42e+08      200.089  2.10139e-09      703.419
     7.43e+08      202.624   2.3224e-09      717.595
     7.44e+08      205.191  2.56665e-09      732.057
     7.45e+08       207.79  2.83659e-09       746.81
     7.46e+08      210.423  3.13491e-09      761.861
     7.47e+08      213.088  3.46461e-09      777.215
     7.48e+08      215.788  3.82899e-09      792.878
     7.49e+08      218.522  4.23169e-09      808.857
      7.5e+08       221.29  4.67674e-09      825.158
     7.51e+08      224.094   5.1686e-09      841.787
     7.52e+08      226.933  5.71218e-09      858.752
     7.53e+08      229.808  6.31294e-09      876.058
     7.54e+08      232.719  6.97688e-09      893.713
     7.55e+08      235.667  7.71064e-09      911.724
     7.56e+08      238.653  8.52157e-09      930.098
     7.57e+08      241.676   9.4178e-09       950.99
     7.58e+08      244.738  1.04083e-08      981.543
     7.59e+08      247.839  1.15029e-08      1013.08
      7.6e+08      250.979  1.27127e-08      1045.63
     7.61e+08      254.158  1.40497e-08      1079.22
     7.62e+08      257.378  1.55273e-08      1113.89
     7.63e+08      260.639  1.71603e-08       1156.8
     7.64e+08      263.941  1.89651e-08      1204.57
     7.65e+08      267.284  2.09597e-08       1267.9
     7.66e+08      270.671   2.3164e-08       1360.7
     7.67e+08        274.1  2.56002e-08      1463.68
     7.68e+08      277.572  2.82926e-08       1452.1
     7.69e+08      281.089  3.12682e-08      1440.61
      7.7e+08       284.65  3.45567e-08      1429.21
     7.71e+08      288.256   3.8191e-08       1417.9
     7.72e+08      291.908  4.22076e-08      1406.68
     7.73e+08      295.606  4.66467e-08      1395.55
     7.74e+08      299.351  5.15525e-08      1384.51
     7.75e+08      303.143  5.69743e-08      1373.56
     7.76e+08      306.984  6.29664e-08      1362.69
     7.77e+08      310.873  6.95886e-08      1351.91
     7.78e+08      314.811  7.69073e-08      1341.21
     7.79e+08        318.8  8.49957e-08       1330.6
      7.8e+08      322.839  9.39348e-08      1320.08
     7.81e+08      326.929  1.03814e-07      1309.63
     7.82e+08       331.07  1.14732e-07      1299.27
     7.83e+08      335.265  1.26799e-07      1288.99
     7.84e+08      339.512  1.40134e-07      1278.79
     7.85e+08      343.813  1.54872e-07      1268.67
     7.86e+08      348.169   1.7116e-07      1258.64
     7.87e+08       352.58  1.89161e-07      1248.68
     7.88e+08      357.047  2.09056e-07       1238.8
     7.89e+08       361.57  2.31042e-07         1229
      7.9e+08      366.151  2.55341e-07      1219.27
     7.91e+08      370.789  2.82196e-07      1209.63
     7.92e+08      375.487  3.11875e-07      1200.06
     7.93e+08      380.244  3.44675e-07      1190.56
     7.94e+08      385.061  3.80924e-07      1181.14
     7.95e+08      389.939  4.20987e-07       1171.8
     7.96e+08      394.879  4.65262e-07      1162.53
     7.97e+08      399.882  5.14194e-07      1153.33
     7.98e+08      404.948  5.68273e-07      1144.21
     7.99e+08      410.078  6.28038e-07      1135.15
        8e+08      415.273   6.9409e-07      1126.17
     8.01e+08      420.535  7.67088e-07      1117.26
     8.02e+08      425.862  8.47763e-07      1108.42
     8.03e+08      431.257  9.36923e-07      1099.65
     8.04e+08      436.721  1.03546e-06      1090.95
     8.05e+08      442.254  1.14436e-06      1082.32
     8.06e+08      447.857  1.26471e-06      1073.76
     8.07e+08       453.53  1.39772e-06      1065.26
     8.08e+08      459.276  1.54472e-06      1056.83
     8.09e+08      465.095  1.70719e-06      1048.47
      8.1e+08      470.987  1.88673e-06      1040.18
     8.11e+08      476.954  2.08516e-06      1031.95
     8.12e+08      482.996  2.30446e-06      1023.78
     8.13e+08      489.115  2.54682e-06      1015.68
     8.14e+08      495.312  2.81467e-06      1007.65
     8.15e+08      501.587  3.11069e-06      999.675
     8.16e+08      507.941  3.43785e-06      991.765
     8.17e+08      514.376  3.79941e-06      983.919
     8.18e+08      520.893    4.199e-06      976.134
     8.19e+08      527.492  4.64061e-06      968.411
      8.2e+08      534.174  5.12867e-06      960.749
     8.21e+08      540.942  5.66805e-06      965.682
     8.22e+08      547.795  6.26417e-06      981.109
     8.23e+08      554.735  6.92298e-06      996.782
     8.24e+08      561.763  7.65107e-06      1012.71
     8.25e+08       568.88  8.45574e-06      1028.88
     8.26e+08      576.087  9.34504e-06      1045.32
     8.27e+08      583.385  1.03279e-05      1062.02
     8.28e+08      590.776  1.14141e-05      1078.99
     8.29e+08       598.26  1.26145e-05       1098.6
      8.3e+08      605.839  1.39412e-05      1120.74
     8.31e+08      613.515  1.54074e-05      1143.33
     8.32e+08      621.287  1.70278e-05      1166.37
     8.33e+08      629.158  1.88186e-05      1189.87
     8.34e+08      637.129  2.07978e-05      1213.85
     8.35e+08      645.201  2.29851e-05      1238.31
     8.36e+08      653.374  2.54025e-05      1263.27
     8.37e+08      661.652  2.80741e-05      1288.73
     8.38e+08      670.034  3.10266e-05       1314.7
     8.39e+08      678.523  3.42897e-05      1341.36
      8.4e+08      687.119   3.7896e-05      1375.48
     8.41e+08      695.824  4.18816e-05      1410.47
     8.42e+08      704.639  4.62863e-05      1461.87
     8.43e+08      713.566  5.11543e-05      1521.24
     8.44e+08      722.606  5.65342e-05      1583.02
     8.45e+08      731.761    6.248e-05      1647.32
     8.46e+08      741.031   6.9051e-05      1714.22
     8.47e+08      750.419  7.63132e-05      1783.84
     8.48e+08      759.926  8.43391e-05      1856.29
     8.49e+08      769.554  9.32091e-05      1931.68
      8.5e+08      779.303  0.000103012      2010.13
     8.51e+08      789.176  0.000113846      2091.77
     8.52e+08      799.174  0.000125819      2176.73
     8.53e+08      809.298  0.000139052      2265.13
     8.54e+08      819.551  0.000153676      2357.13
     8.55e+08      829.934  0.000169838      2452.86
     8.56e+08      840.448    0.0001877      2569.46
     8.57e+08      851.096  0.000207441      2726.07
     8.58e+08      861.878  0.000229258      2903.62
     8.59e+08      872.797  0.000253369      3092.73
      8.6e+08      883.854  0.000280016      3312.51
     8.61e+08      895.052  0.000309465       3588.6
     8.62e+08      906.391  0.000342012      3966.02
     8.63e+08      917.874  0.000377982      4383.13
     8.64e+08      923.272  0.000417734      4639.71
     8.65e+08      915.968  0.000461668      4495.28
     8.66e+08      908.721  0.000510222      4355.35
     8.67e+08      901.531  0.000563882      4219.78
     8.68e+08      894.398  0.000623187      4088.42
     8.69e+08      887.322  0.000688728      3961.16
      8.7e+08      880.302  0.000761162      3837.86
     8.71e+08      873.337  0.000841214      3718.39
     8.72e+08      866.427  0.000929685      3602.65
     8.73e+08      859.572   0.00102746       3490.5
     8.74e+08      852.771   0.00113552      3381.85
     8.75e+08      846.024   0.00125494      3276.58
     8.76e+08      839.331   0.00138693      3174.59
     8.77e+08       832.69   0.00153279      3075.77
     8.78e+08      826.102     0.001694      2980.03
     8.79e+08      819.566   0.00187216      2887.26
      8.8e+08      813.082   0.00206905      2797.39
     8.81e+08      806.649   0.00228666      2710.31
     8.82e+08      800.267   0.00252715      2625.95
     8.83e+08      793.935   0.00279293       2544.2
     8.84e+08      787.654   0.00308666      2465.01
     8.85e+08      781.422   0.00341129      2388.28
     8.86e+08       775.24   0.00377006      2313.94
     8.87e+08      769.106   0.00416656      2241.91
     8.88e+08      763.021   0.00460476      2172.12
     8.89e+08      756.984   0.00508905      2104.51
      8.9e+08      750.995   0.00562427         2039
     8.91e+08      745.053   0.00621578      1975.53
     8.92e+08      739.159   0.00686949      1923.74
     8.93e+08      733.311   0.00759197      1876.02
     8.94e+08      727.509   0.00839042      1829.49
     8.95e+08      721.753   0.00927285       1784.1
     8.96e+08      716.042    0.0102481      1739.85
     8.97e+08      710.377    0.0113259      1696.69
     8.98e+08      704.757     0.012517       1654.6
     8.99e+08      699.181    0.0138335      1613.56
        9e+08      693.649    0.0152883      1581.27
     9.01e+08      688.161    0.0168962      1550.03
     9.02e+08      682.717    0.0186732      1519.41
     9.03e+08      677.315    0.0206371      1489.39
     9.04e+08      671.956    0.0228075      1459.97
     9.05e+08       666.64    0.0252062      1431.13
     9.06e+08      661.366    0.0278572      1402.86
     9.07e+08      656.133    0.0307869      1375.14
     9.08e+08      650.942    0.0340248      1392.25
     9.09e+08      645.792    0.0376033      1420.31
      9.1e+08      640.682     0.041558      1448.94
     9.11e+08      635.613    0.0459287      1478.14
     9.12e+08      630.584    0.0507591      1507.93
     9.13e+08      625.595    0.0560975      1538.31
     9.14e+08      620.646    0.0619973      1569.32
     9.15e+08      615.735    0.0685176      1600.94
     9.16e+08      610.864    0.0757237      1633.21
     9.17e+08      606.031    0.0836876       1674.1
     9.18e+08      601.236    0.0924891      1716.68
     9.19e+08      596.479     0.102216      1760.35
      9.2e+08       591.76     0.112966      1805.13
     9.21e+08      587.078     0.124847      1851.05
     9.22e+08      582.433     0.137977      1898.13
     9.23e+08      577.825     0.152489      1946.41
     9.24e+08      573.253     0.168526      1996.45
     9.25e+08      568.718      0.18625      2060.59
     9.26e+08      564.218     0.205838      2126.79
     9.27e+08      559.754     0.227486      2195.12
     9.28e+08      555.326     0.251411      2265.65
     9.29e+08      550.932     0.277853      2338.44
      9.3e+08      546.573     0.307075      2413.57
     9.31e+08      542.249      0.33937      2507.39
     9.32e+08      537.959     0.375062      2609.22
     9.33e+08      533.702     0.414507      2715.19
     9.34e+08       529.48     0.458101      2825.46
     9.35e+08      525.291      0.50628      2940.22
     9.36e+08      521.135     0.559526      3087.54
     9.37e+08      517.012     0.618372      3246.23
     9.38e+08      512.921     0.683407      3413.07
     9.39e+08      508.863     0.755282      3590.51
      9.4e+08      504.837     0.834715      3824.36
     9.41e+08      500.843     0.922503      4073.43
     9.42e+08       496.88      1.01952      4344.02
     9.43e+08      492.949      1.12675      4703.15
     9.44e+08      489.049      1.24525      5091.98
     9.45e+08       485.18      1.37621       5605.3
     9.46e+08      481.341      1.52095      6194.81
     9.47e+08      477.533      1.68091      6846.32
     9.48e+08      473.754      1.85769      7566.36
     9.49e+08      470.006      2.05307      8362.12
      9.5e+08      466.288      2.26899      9241.57
     9.51e+08      462.598      2.50762      8452.23
     9.52e+08      458.938      2.77135       7647.9
     9.53e+08      455.307      3.06282       6920.1
     9.54e+08      451.705      3.38494      6261.57
     9.55e+08      448.131      3.74093       5665.7
     9.56e+08      444.586      4.13437      5126.54
     9.57e+08      441.068      4.56919      4719.15
     9.58e+08      437.579      5.04973       4358.8
     9.59e+08      434.117      5.58082      4047.51
      9.6e+08      430.682      6.16776      3848.89
     9.61e+08      427.274      6.81643      3698.67
     9.62e+08      423.894      7.53332      3554.32
     9.63e+08       420.54       8.3256       3415.6
     9.64e+08      417.213      9.20121      3282.29
     9.65e+08      413.912      10.1689      3154.19
     9.66e+08      410.637      11.2384      3031.08
     9.67e+08      407.388      12.4203      2912.78
     9.68e+08      404.165      13.7266       2799.1
     9.69e+08      400.967      15.1702      2689.86
      9.7e+08      397.795      16.7657      2584.87
     9.71e+08      394.648       18.529      2483.99
     9.72e+08      391.525      20.4777      2391.43
     9.73e+08      388.428      22.6313      2316.99
     9.74e+08      385.355      25.0115      2244.86
     9.75e+08      382.306       27.642      2174.99
     9.76e+08      379.281      30.5491      2107.28
     9.77e+08       376.28       33.762      2041.69
     9.78e+08      373.303      37.3128      1978.13
     9.79e+08       370.35       41.237      1916.56
      9.8e+08       367.42      45.5739       1856.9
     9.81e+08      364.513       50.367      1808.18
     9.82e+08      361.629      55.6641      1763.33
     9.83e+08      358.767      61.5183      1719.58
     9.84e+08      355.929      67.9883      1676.93
     9.85e+08      353.113      74.7055      1635.33
     9.86e+08      350.319        72.38      1594.76
     9.87e+08      347.548       70.127       1555.2
     9.88e+08      344.798      67.9441      1516.63
     9.89e+08       342.07        65.57      1496.19
      9.9e+08      339.363      59.3302      1526.34
     9.91e+08      336.678      53.6842      1557.11
     9.92e+08      334.015      48.5755      1588.49
     9.93e+08      331.372      43.9529       1620.5
     9.94e+08       328.75      39.7702      1658.18
     9.95e+08      326.149      35.9856      1700.36
     9.96e+08      323.569      32.5611      1743.61
     9.97e+08      321.009      29.4625      1787.97
     9.98e+08      318.469      26.6588      1833.45
     9.99e+08      315.949      24.1219      1880.08
        1e+09       313.45      21.8264      1927.91
    1.001e+09       310.97      19.7493      1976.95
    1.002e+09      308.509      17.8699      2037.99
    1.003e+09      306.069      16.1694      2103.46
    1.004e+09      303.647      14.6307      2171.04
    1.005e+09      301.245      13.2384      2240.79
    1.006e+09      298.861      11.9786      2312.79
    1.007e+09      296.497      10.8387      2387.09
    1.008e+09      294.151      9.80722      2476.73
    1.009e+09      291.824      8.87394      2577.32
     1.01e+09      289.515      8.02947         2682
    1.011e+09      287.224      7.26537      2790.92
    1.012e+09      284.952      6.57398      2904.27
    1.013e+09      282.697      5.94838      3046.53
    1.014e+09      280.461      5.38232      3203.11
    1.015e+09      278.242      4.87012      3367.74
    1.016e+09       276.04      4.40667      3540.82
    1.017e+09      273.856      3.98732      3770.38
    1.018e+09       271.69      3.60788      4015.94
    1.019e+09       269.54      3.26454      4280.27
     1.02e+09      267.407      2.95388      4634.13
    1.021e+09      265.292      2.67278      5017.25
    1.022e+09      263.193      2.41843      5521.45
    1.023e+09       261.11      2.18829      6102.14
    1.024e+09      259.045      1.98004      6743.91
    1.025e+09      256.995      1.79162      7453.17
    1.026e+09      254.962      1.62112      8237.03
    1.027e+09      252.945      1.46685      9103.33
    1.028e+09      250.943      1.32726      8307.14
    1.029e+09      248.958      1.20096      7516.61
     1.03e+09      246.988      1.08667      6801.31
    1.031e+09      245.034     0.983261      6154.08
    1.032e+09      243.095     0.889691      5568.44
    1.033e+09      241.172     0.805026      5038.54
    1.034e+09      239.264     0.728417      4634.98
    1.035e+09      237.371     0.659099      4281.05
    1.036e+09      235.493     0.596378       3971.9
    1.037e+09       233.63     0.539625      3729.04
    1.038e+09      231.781     0.488273      3501.02
    1.039e+09      229.948     0.441808      3286.94
     1.04e+09      228.128     0.399764      3121.03
    1.041e+09      226.323     0.361721      2968.47
    1.042e+09      224.533     0.327299      2823.36
    1.043e+09      222.756     0.296152      2685.34
    1.044e+09      220.994      0.26797      2562.89
    1.045e+09      219.245     0.242469      2462.86
    1.046e+09      217.511     0.219395      2366.74
    1.047e+09       215.79     0.198517      2274.37
    1.048e+09      214.083     0.179626       2185.6
    1.049e+09      212.389     0.162532       2100.3
     1.05e+09      210.708     0.147065      2018.33
    1.051e+09      209.041      0.13307      1939.56
    1.052e+09      207.387     0.120407      1863.86
    1.053e+09      205.747     0.108948      1791.12
    1.054e+09      204.119    0.0985806      1721.21
    1.055e+09      202.504    0.0891994      1654.04
    1.056e+09      200.902    0.0807109      1589.48
    1.057e+09      199.312    0.0730303      1527.44
    1.058e+09      197.735    0.0660805      1467.83
    1.059e+09      196.171    0.0597921      1410.54
     1.06e+09      194.619    0.0541022      1355.49
    1.061e+09      193.079    0.0489537      1302.59
    1.062e+09      191.551    0.0442951      1299.91
    1.063e+09      190.036    0.0400799      1316.38
    1.064e+09      188.532    0.0362658      1333.05
    1.065e+09      187.041    0.0328146      1349.94
    1.066e+09      185.561    0.0296919      1367.04
    1.067e+09      184.093    0.0268663      1384.36
    1.068e+09      182.636    0.0243097       1401.9
    1.069e+09      181.191    0.0219963      1419.66
     1.07e+09      179.758    0.0199031      1437.65
    1.071e+09      178.335     0.018009      1455.86
    1.072e+09      176.924    0.0162953       1474.3
    1.073e+09      175.525    0.0147446      1492.98
    1.074e+09      174.136    0.0133414       1511.9
    1.075e+09      172.758    0.0120718      1531.05
    1.076e+09      171.391     0.010923      1550.45
    1.077e+09      170.035   0.00988358      1570.09
    1.078e+09       168.69   0.00894303      1589.98
    1.079e+09      167.355   0.00809199      1610.12
     1.08e+09      166.031   0.00732193      1630.52
    1.081e+09      164.718   0.00662516      1651.18
    1.082e+09      163.415   0.00599469       1672.1
    1.083e+09      162.122   0.00542422      1693.28
    1.084e+09      160.839   0.00490804      1714.73
    1.085e+09      159.566   0.00444098      1736.45
    1.086e+09      158.304   0.00401836      1758.45
    1.087e+09      157.052   0.00363596      1780.73
    1.088e+09      155.809   0.00328996      1803.29
    1.089e+09      154.576   0.00297688      1826.14
     1.09e+09      153.353   0.00269359      1849.27
    1.091e+09       152.14   0.00243726       1872.7
    1.092e+09      150.936   0.00220532      1896.42
    1.093e+09      149.742   0.00199546      1920.45
    1.094e+09      148.557   0.00180557      1944.78
    1.095e+09      147.382   0.00163374      1969.42
    1.096e+09      146.216   0.00147827      1919.18
    1.097e+09      145.059    0.0013376      1736.55
    1.098e+09      143.911   0.00121031      1571.29
    1.099e+09      142.773   0.00109513      1421.76
      1.1e+09      141.643  0.000990916      1286.46
    1.101e+09      140.523  0.000896618      1164.04
    1.102e+09      139.411  0.000811293      1088.29
    1.103e+09      138.308  0.000734088      1035.09
    1.104e+09      137.214  0.000664231      984.492
    1.105e+09      136.128  0.000601021      936.367
    1.106e+09      135.051  0.000543826      890.594
    1.107e+09      133.982  0.000492074      847.058
    1.108e+09      132.922  0.000445247      805.651
    1.109e+09      131.871  0.000402876      766.268
     1.11e+09      130.827  0.000364538      731.259
    1.111e+09      129.792  0.000329847      708.497
    1.112e+09      128.765  0.000298458      704.588
    1.113e+09      127.747  0.000270056      708.128
    1.114e+09      126.736  0.000244357      711.686
    1.115e+09      125.733  0.000221103      715.262
    1.116e+09      124.738  0.000200062      718.855
    1.117e+09      123.752  0.000181024      722.467
    1.118e+09      122.772  0.000163797      726.097
    1.119e+09      121.801   0.00014821      729.745
     1.12e+09      120.837  0.000134106      733.412
    1.121e+09      119.881  0.000121344      737.097
    1.122e+09      118.933  0.000109797      740.801
    1.123e+09      117.992  9.93481e-05      744.523
    1.124e+09      117.058  8.98939e-05      748.263
    1.125e+09      116.132  8.13393e-05      752.023
    1.126e+09      115.213  7.35989e-05      755.802
    1.127e+09      114.302   6.6595e-05      759.599
    1.128e+09      113.398  6.02577e-05      763.416
    1.129e+09        112.5  5.45234e-05      767.251
     1.13e+09       111.61  4.93348e-05      771.106
    1.131e+09      110.727    4.464e-05      774.981
    1.132e+09      109.851  4.03919e-05      778.875
    1.133e+09      108.982  3.65481e-05      782.788
    1.134e+09       108.12  3.30701e-05      786.721
    1.135e+09      107.264  2.99231e-05      790.674
    1.136e+09      106.416  2.70755e-05      794.647
    1.137e+09      105.574  2.44989e-05      798.639
    1.138e+09      104.739  2.21676e-05      802.652
    1.139e+09       103.91   2.0058e-05      806.685
     1.14e+09      103.088  1.81493e-05      810.738
    1.141e+09      102.272  1.64221e-05      814.812
    1.142e+09      101.463  1.48594e-05      818.906
    1.143e+09       100.66  1.34453e-05       823.02
    1.144e+09      99.8638  1.21658e-05      827.155
    1.145e+09      99.0737  1.10081e-05      831.311
    1.146e+09      98.2898  9.96052e-06      835.488
    1.147e+09      97.5122  9.01265e-06      839.686
    1.148e+09      96.7407  8.15499e-06      843.905
    1.149e+09      95.9753  7.37894e-06      848.145
     1.15e+09       95.216  6.67674e-06      852.407
    1.151e+09      94.4626  6.04136e-06       856.69
    1.152e+09      93.7153  5.46645e-06      860.994
    1.153e+09      92.9738  4.94625e-06       865.32
    1.154e+09      92.2382  4.47555e-06      869.668
    1.155e+09      91.5084  4.04965e-06      874.037
    1.156e+09      90.7844  3.66427e-06      878.429
    1.157e+09      90.0662  3.31557e-06      865.674
    1.158e+09      89.3536  3.00005e-06      789.023
    1.159e+09      88.6466  2.71456e-06      728.773
     1.16e+09      87.9453  2.45623e-06      673.124
    1.161e+09      87.2495  2.22249e-06      621.724
    1.162e+09      86.5592  2.01099e-06      574.249
    1.163e+09      85.8743  1.81962e-06      537.219
    1.164e+09      85.1949  1.64646e-06      516.252
    1.165e+09      84.5209  1.48978e-06      496.103
    1.166e+09      83.8521  1.34801e-06      476.741
    1.167e+09      83.1887  1.21973e-06      458.134
    1.168e+09      82.5306  1.10366e-06      450.622
    1.169e+09      81.8776  9.98631e-07      451.756
     1.17e+09      81.2298  9.03598e-07      452.892
    1.171e+09      80.5871  8.17609e-07      454.031
    1.172e+09      79.9495  7.39804e-07      455.173
    1.173e+09       79.317  6.69402e-07      456.317
    1.174e+09      78.6894    6.057e-07      457.465
    1.175e+09      78.0669   5.4806e-07      458.616
    1.176e+09      77.4492  4.95905e-07      459.769
    1.177e+09      76.8364  4.48714e-07      460.925
    1.178e+09      76.2285  4.06013e-07      462.085
    1.179e+09      75.6254  3.67376e-07      463.247
     1.18e+09      75.0271  3.32415e-07      464.412
    1.181e+09      74.4335  3.00782e-07       465.58
    1.182e+09      73.8446  2.72159e-07      466.751
    1.183e+09      73.2603  2.46259e-07      467.925
    1.184e+09      72.6807  2.22825e-07      469.102
    1.185e+09      72.1057   2.0162e-07      470.281
    1.186e+09      71.5352  1.82433e-07      471.464
    1.187e+09      70.9692  1.65073e-07       472.65
    1.188e+09      70.4077  1.49364e-07      473.839
    1.189e+09      69.8507   1.3515e-07       475.03
     1.19e+09       69.298  1.22289e-07      476.225
    1.191e+09      68.7498  1.10651e-07      477.423
    1.192e+09      68.2058  1.00122e-07      478.624
    1.193e+09      67.6662  9.05937e-08      479.827
    1.194e+09      67.1308  8.19726e-08      481.034
    1.195e+09      66.5997  7.41719e-08      482.244
    1.196e+09      66.0728  6.71135e-08      483.457
    1.197e+09        65.55  6.07268e-08      484.673
    1.198e+09      65.0314  5.49479e-08      485.892
    1.199e+09      64.5169  4.97189e-08      487.114
      1.2e+09      64.0064  4.49875e-08      488.339
    1.201e+09         63.5  4.07064e-08      489.567
    1.202e+09      62.9976  3.68327e-08      490.798
    1.203e+09      62.4992  3.33276e-08      492.033
    1.204e+09      62.0047   3.0156e-08       493.27
    1.205e+09      61.5142  2.72863e-08      494.511
    1.206e+09      61.0275  2.46897e-08      495.755
    1.207e+09      60.5446  2.23401e-08      497.001
    1.208e+09      60.0656  2.02142e-08      498.251
    1.209e+09      59.5904  1.82906e-08      499.504
     1.21e+09      59.1189    1.655e-08      500.761
    1.211e+09      58.6512   1.4975e-08       502.02
    1.212e+09      58.1871    1.355e-08      470.532
    1.213e+09      57.7268  1.22605e-08      434.602
    1.214e+09      57.2701  1.10938e-08      401.416
    1.215e+09      56.8169  1.00381e-08      370.764
    1.216e+09      56.3674  9.08282e-09      342.452
    1.217e+09      55.9215  8.21848e-09      318.881
    1.218e+09       55.479  7.43638e-09      303.293
    1.219e+09      55.0401  6.72872e-09      288.467
     1.22e+09      54.6046   6.0884e-09      274.366
    1.221e+09      54.1726  5.50901e-09      260.954
    1.222e+09       53.744  4.98476e-09      248.197
    1.223e+09      53.3188   4.5104e-09      236.065
    1.224e+09      52.8969  4.08117e-09      224.525
    1.225e+09      52.4784   3.6928e-09      213.549
    1.226e+09      52.0632  3.34138e-09       203.11
    1.227e+09      51.6513  3.02341e-09      193.182
    1.228e+09      51.2426  2.73569e-09      183.738
    1.229e+09      50.8372  2.47536e-09      174.757
     1.23e+09       50.435   2.2398e-09      167.288
    1.231e+09       50.036  2.02665e-09      163.983
    1.232e+09      49.6401  1.83379e-09      160.744
    1.233e+09      49.2474  1.65928e-09      157.568
    1.234e+09      48.8577  1.50138e-09      154.455
    1.235e+09      48.4712   1.3585e-09      151.404
    1.236e+09      48.0877  1.22923e-09      148.413
    1.237e+09      47.7072  1.11225e-09      145.481
    1.238e+09      47.3298  1.00641e-09      142.607
    1.239e+09      46.9553  9.10633e-10       139.79
     1.24e+09      46.5838  8.23975e-10      137.029
    1.241e+09      46.2152  7.45563e-10      134.322
    1.242e+09      45.8496  6.74614e-10      131.668
    1.243e+09      45.4868  6.10416e-10      129.067
    1.244e+09      45.1269  5.52327e-10      126.517
    1.245e+09      44.7699  4.99766e-10      124.018
    1.246e+09      44.4157  4.52207e-10      121.568
    1.247e+09      44.0643  4.09174e-10      119.166
    1.248e+09      43.7157  3.70236e-10      116.812
    1.249e+09      43.3698  3.35003e-10      114.505
     1.25e+09      43.0267  3.03123e-10      112.243
    1.251e+09      42.6862  2.74277e-10      110.025
    1.252e+09      42.3485  2.48176e-10      107.852
    1.253e+09      42.0135  2.24559e-10      107.281
    1.254e+09      41.6811   2.0319e-10      106.855
    1.255e+09      41.3513  1.83854e-10       106.43
    1.256e+09      41.0241  1.66358e-10      106.008
    1.257e+09      40.6996  1.50527e-10      105.586
    1.258e+09      40.3775  1.36202e-10      105.167
    1.259e+09      40.0581  1.23241e-10      104.749
     1.26e+09      39.7412  1.11513e-10      104.333
    1.261e+09      39.4267  1.00901e-10      103.918
    1.262e+09      39.1148   9.1299e-11      103.505
    1.263e+09      38.8053  8.26108e-11      103.094
    1.264e+09      38.4983  7.47493e-11      102.685
    1.265e+09      38.1937   6.7636e-11      102.277
    1.266e+09      37.8915  6.11996e-11       101.87
    1.267e+09      37.5917  5.53757e-11      101.465
    1.268e+09      37.2943   5.0106e-11      101.062
    1.269e+09      36.9993  4.53378e-11      100.661
     1.27e+09      36.7065  4.10233e-11      100.261
    1.271e+09      36.4161  3.71194e-11      99.8625
    1.272e+09       36.128   3.3587e-11      99.4657
    1.273e+09      35.8422  3.03908e-11      99.0705
    1.274e+09      35.5586  2.74987e-11      98.6769
    1.275e+09      35.2772  2.48819e-11      98.2848
    1.276e+09      34.9981  2.25141e-11      97.8943
    1.277e+09      34.7212  2.03716e-11      97.5054
    1.278e+09      34.4465   1.8433e-11       97.118
    1.279e+09       34.174  1.66788e-11      96.7321
     1.28e+09      33.9036  1.50916e-11      96.3478
    1.281e+09      33.6354  1.36555e-11       95.965
    1.282e+09      33.3693   1.2356e-11      95.5837
    1.283e+09      33.1053  1.11802e-11      95.2039
    1.284e+09      32.8433  1.01162e-11      94.8256
    1.285e+09      32.5835  9.15353e-12      94.4489
    1.286e+09      32.3257  8.28246e-12      94.0736
    1.287e+09      32.0699  7.49428e-12      93.6999
    1.288e+09      31.8162  6.78111e-12      93.3276
    1.289e+09      31.5645   6.1358e-12      92.9568
     1.29e+09      31.3147   5.5519e-12      92.5874
    1.291e+09       31.067  5.02357e-12      92.2196
    1.292e+09      30.8212  4.54551e-12      91.8532
    1.293e+09      30.5773  4.11295e-12      91.4882
    1.294e+09      30.3354  3.72155e-12      91.1247
    1.295e+09      30.0954   3.3674e-12      90.7627
    1.296e+09      29.8573  3.04695e-12       90.402
    1.297e+09      29.6211  2.75699e-12      90.0429
    1.298e+09      29.3867  2.49463e-12      89.6851
    1.299e+09      29.1542  2.25723e-12      89.3288
      1.3e+09      28.9236  2.04243e-12      88.9739
    1.301e+09      28.6947  1.84807e-12      88.6204
    1.302e+09      28.4677   1.6722e-12      88.2682
    1.303e+09      28.2425  1.51307e-12      87.9175
    1.304e+09       28.019  1.36908e-12      87.5682
    1.305e+09      27.7973   1.2388e-12      87.2203
    1.306e+09      27.5774  1.12091e-12      86.8738
    1.307e+09      27.3592  1.01424e-12      86.5286
    1.308e+09      27.1428  9.17723e-13      86.1848
    1.309e+09       26.928   8.3039e-13      85.8424
     1.31e+09       26.715  7.51368e-13      85.5013
    1.311e+09      26.5036  6.79866e-13      85.1616
    1.312e+09      26.2939  6.15168e-13      84.8232
    1.313e+09      26.0859  5.56627e-13      84.4862
    1.314e+09      25.8795  5.03657e-13      84.1506
    1.315e+09      25.6747  4.55728e-13      83.8162
    1.316e+09      25.4716  4.12359e-13      83.4832
    1.317e+09      25.2701  3.73118e-13      83.1515
    1.318e+09      25.0701  3.37611e-13      82.8211
    1.319e+09      24.8718  3.05483e-13      82.4921
     1.32e+09       24.675  2.76413e-13      82.1643
    1.321e+09      24.4798  2.50109e-13      81.8379
    1.322e+09      24.2861  2.26308e-13      81.5127
    1.323e+09       24.094  2.04772e-13      81.1888
    1.324e+09      23.9033  1.85285e-13      80.8663
    1.325e+09      23.7142  1.67653e-13       80.545
    1.326e+09      23.5266  1.51699e-13       80.225
    1.327e+09      23.3404  1.37263e-13      79.9062
    1.328e+09      23.1558    1.242e-13      79.5887
    1.329e+09      22.9726  1.12381e-13      79.2725
     1.33e+09      22.7908  1.01687e-13      78.9576
    1.331e+09      22.6105  9.20098e-14      78.6438
    1.332e+09      22.4316  8.32539e-14      78.3314
    1.333e+09      22.2541  7.53313e-14      78.0201
    1.334e+09      22.0781  6.81626e-14      77.7102
    1.335e+09      21.9034   6.1676e-14      77.4014
    1.336e+09      21.7301  5.58068e-14      77.0939
    1.337e+09      21.5582  5.04961e-14      76.7876
    1.338e+09      21.3876  4.56907e-14      76.4825
    1.339e+09      21.2184  4.13427e-14      76.1786
     1.34e+09      21.0505  3.74084e-14      75.8759
    1.341e+09       20.884  3.38485e-14      75.5745
    1.342e+09     0.207187  3.06274e-16       311.21
    1.343e+09     0.205548  2.77128e-16      295.996
    1.344e+09     0.203922  2.50756e-16      281.527
    1.345e+09     0.202309  2.26893e-16      267.765
    1.346e+09     0.200708  2.05302e-16      254.676
    1.347e+09      0.19912  1.85765e-16      242.226
    1.348e+09     0.197545  1.68087e-16      230.386
    1.349e+09     0.195982  1.52091e-16      219.123
     1.35e+09     0.194431  1.37618e-16      208.412
    1.351e+09     0.192893  1.24522e-16      198.224
    1.352e+09     0.191367  1.12672e-16      188.534
    1.353e+09     0.189853   1.0195e-16      179.362
    1.354e+09      0.18835   9.2248e-17      172.362
    1.355e+09      0.18686  8.34694e-17      165.635
    1.356e+09     0.185382  7.55263e-17      159.171
    1.357e+09     0.183915   6.8339e-17      152.958
    1.358e+09      0.18246  6.18357e-17      146.989
    1.359e+09     0.181016  5.59512e-17      141.252
     1.36e+09     0.179584  5.06268e-17      135.739
    1.361e+09     0.178163   4.5809e-17      130.441
    1.362e+09     0.176754  4.14497e-17      126.101
    1.363e+09     0.175355  3.75052e-17      122.175
    1.364e+09     0.173968  3.39361e-17      118.372
    1.365e+09     0.172592  3.07067e-17      114.688
    1.366e+09     0.171226  2.77846e-17      111.118
    1.367e+09     0.169871  2.51405e-17      107.659
    1.368e+09     0.168527  2.27481e-17      104.308
    1.369e+09     0.167194  2.05833e-17      101.061
     1.37e+09     0.165871  1.86245e-17      97.9149
    1.371e+09     0.164559  1.68522e-17       94.867
    1.372e+09     0.163257  1.52485e-17       91.914
    1.373e+09     0.161965  1.37974e-17      89.0529
    1.374e+09     0.160684  1.24844e-17      86.2808
    1.375e+09     0.159413  1.12964e-17      83.5951
    1.376e+09     0.158151  1.02214e-17      80.9929
    1.377e+09       0.1569  9.24868e-18      78.4718
    1.378e+09     0.155659  8.36855e-18      76.0291
    1.379e+09     0.154427  7.57218e-18      73.6625
     1.38e+09     0.153205  6.85159e-18      71.3695
    1.381e+09     0.151993  6.19957e-18      69.1479
    1.382e+09     0.150791  5.60961e-18      66.9955
    1.383e+09     0.149598  5.07578e-18      64.9101
    1.384e+09     0.148414  4.59276e-18      62.8895
    1.385e+09      0.14724   4.1557e-18      60.9319
    1.386e+09     0.146075  3.76023e-18      59.0352
    1.387e+09     0.144919   3.4024e-18      57.1976
    1.388e+09     0.143773  3.07862e-18      55.4171
    1.389e+09     0.142635  2.78565e-18      53.6921
     1.39e+09     0.141507  2.52056e-18      52.0208
    1.391e+09     0.140387   2.2807e-18      50.4015
    1.392e+09     0.139276  2.06366e-18      48.8326
    1.393e+09     0.138174  1.86728e-18      47.3125
    1.394e+09     0.137081  1.68958e-18      45.8398
    1.395e+09     0.135997   1.5288e-18      44.4129
    1.396e+09     0.134921  1.38331e-18      43.0304
    1.397e+09     0.133853  1.25167e-18      41.6909
    1.398e+09     0.132794  1.13256e-18      40.3932
    1.399e+09     0.131744  1.02478e-18      39.1358
      1.4e+09     0.130701  9.27262e-19      37.9176
    1.401e+09     0.129667  8.39021e-19      36.7373
    1.402e+09     0.128641  7.59178e-19      35.5937
    1.403e+09     0.127623  6.86932e-19      34.4858
    1.404e+09     0.126614  6.21562e-19      33.4123
    1.405e+09     0.125612  5.62413e-19      32.3722
    1.406e+09     0.124618  5.08892e-19      31.3646
    1.407e+09     0.123632  4.60465e-19      30.3882
    1.408e+09     0.122654  4.16645e-19      29.5125
    1.409e+09     0.121684  3.76996e-19      28.7804
     1.41e+09     0.120721   3.4112e-19      28.0665
    1.411e+09     0.119766  3.08659e-19      27.3703
    1.412e+09     0.118818  2.79286e-19      26.6913
    1.413e+09     0.117878  2.52708e-19      26.0292
    1.414e+09     0.116945   2.2866e-19      25.3836
    1.415e+09      0.11602    2.069e-19      24.7539
    1.416e+09     0.115102  1.87211e-19      24.1399
    1.417e+09     0.114192  1.69395e-19       23.541
    1.418e+09     0.113288  1.53275e-19      22.9571
    1.419e+09     0.112392  1.38689e-19      22.3876
     1.42e+09     0.111503  1.25491e-19      21.8323
    1.421e+09      0.11062  1.13549e-19      21.2907
    1.422e+09     0.109745  1.02744e-19      20.7625
    1.423e+09     0.108877  9.29662e-20      20.2475
    1.424e+09     0.108016  8.41193e-20      19.7453
    1.425e+09     0.107161  7.61143e-20      19.2555
    1.426e+09     0.106313   6.8871e-20      18.7778
    1.427e+09     0.105472  6.23171e-20       18.312
    1.428e+09     0.104638  5.63868e-20      17.8577
    1.429e+09      0.10381  5.10209e-20      17.4148
     1.43e+09     0.102988  4.61656e-20      16.9828
    1.431e+09     0.102173  4.17724e-20      16.5615
    1.432e+09     0.101365  3.77972e-20      16.1507
    1.433e+09     0.100563  3.42003e-20        15.75
    1.434e+09    0.0997675  3.09458e-20      15.3593
    1.435e+09    0.0989782  2.80009e-20      14.9783
    1.436e+09    0.0981951  2.53362e-20      14.6068
    1.437e+09    0.0974182  2.29252e-20      14.2445
    1.438e+09    0.0966474  2.07436e-20      13.8911
    1.439e+09    0.0958827  1.87695e-20      13.5465
     1.44e+09    0.0951241  1.69834e-20      13.2105
    1.441e+09    0.0943715  1.53672e-20      12.8828
    1.442e+09    0.0936249  1.39048e-20      12.5632
    1.443e+09    0.0928841  1.25816e-20      12.2516
    1.444e+09    0.0921493  1.13843e-20      11.9477
    1.445e+09    0.0914202  1.03009e-20      11.6513
    1.446e+09    0.0906969  9.32068e-21      11.3623
    1.447e+09    0.0899793   8.4337e-21      11.0804
    1.448e+09    0.0892674  7.63113e-21      10.8056
    1.449e+09    0.0885612  6.90493e-21      10.5375
     1.45e+09    0.0878605  6.24784e-21      10.2761
    1.451e+09    0.0871653  5.65328e-21      10.0212
    1.452e+09    0.0864757   5.1153e-21      9.83966
    1.453e+09    0.0857915  4.62851e-21      9.76181
    1.454e+09    0.0851128  4.18805e-21      9.68458
    1.455e+09    0.0844394  3.78951e-21      9.60796
    1.456e+09    0.0837713  3.42889e-21      9.53194
    1.457e+09    0.0831085  3.10259e-21      9.45652
    1.458e+09     0.082451  2.80734e-21      9.38171
    1.459e+09    0.0817986  2.54018e-21      9.30748
     1.46e+09    0.0811515  2.29845e-21      9.23384
    1.461e+09    0.0805094  2.07973e-21      9.16078
    1.462e+09    0.0798724  1.88181e-21      9.08831
    1.463e+09    0.0792405  1.70273e-21       9.0164
    1.464e+09    0.0786136   1.5407e-21      8.94507
    1.465e+09    0.0779916  1.39408e-21      8.87429
    1.466e+09    0.0773745  1.26142e-21      8.80408
    1.467e+09    0.0767624  1.14138e-21      8.73443
    1.468e+09     0.076155  1.03276e-21      8.66532
    1.469e+09    0.0755525  9.34481e-22      8.59676
     1.47e+09    0.0749547  8.45553e-22      8.52875
    1.471e+09    0.0743617  7.65088e-22      8.46127
    1.472e+09    0.0737734   6.9228e-22      8.39433
    1.473e+09    0.0731897  6.26401e-22      8.32791
    1.474e+09    0.0726106  5.66791e-22      8.26202
    1.475e+09    0.0720362  5.12854e-22      8.19665
    1.476e+09    0.0714662  4.64049e-22       8.1318
    1.477e+09    0.0709008  4.19889e-22      8.06747
    1.478e+09    0.0703398  3.79932e-22      8.00364
    1.479e+09    0.0697833  3.43776e-22      7.94031
     1.48e+09    0.0692312  3.11062e-22      7.87749
    1.481e+09    0.0686835   2.8146e-22      7.81517
    1.482e+09    0.0681401  2.54676e-22      7.75334
    1.483e+09    0.0676009   2.3044e-22      7.69199
    1.484e+09    0.0670661  2.08511e-22      7.63113
    1.485e+09    0.0665355  1.88668e-22      7.57076
    1.486e+09    0.0660091  1.70714e-22      7.51086
    1.487e+09    0.0654868  1.54469e-22      7.45144
    1.488e+09    0.0649687  1.39769e-22      7.39248
    1.489e+09    0.0644547  1.26468e-22      7.33399
     1.49e+09    0.0639447  1.14433e-22      7.27597
    1.491e+09    0.0634388  1.03543e-22       7.2184
    1.492e+09    0.0629369    9.369e-23      7.16129
    1.493e+09    0.0624389  8.47742e-23      7.10463
    1.494e+09    0.0619449  7.67069e-23      7.04842
    1.495e+09    0.0614548  6.94072e-23      6.99266
    1.496e+09    0.0609686  6.28023e-23      6.93733
    1.497e+09    0.0604862  5.68258e-23      6.88244
    1.498e+09    0.0600077  5.14181e-23      6.82799
    1.499e+09    0.0595329  4.65251e-23      6.77397
      1.5e+09    0.0590619  4.20976e-23      6.72038
    1.501e+09    0.0585946  3.80915e-23      6.66721
    1.502e+09     0.058131  3.44666e-23      6.61446
    1.503e+09    0.0576711  3.11867e-23      6.56212
    1.504e+09    0.0572148  2.82189e-23      6.51021
    1.505e+09    0.0567622  2.55335e-23       6.4587
    1.506e+09    0.0563131  2.31037e-23       6.4076
    1.507e+09    0.0558675  2.09051e-23       6.3569
    1.508e+09    0.0554255  1.89157e-23      6.30661
    1.509e+09     0.054987  1.71156e-23      6.25671
     1.51e+09     0.054552  1.54868e-23      6.20721
    1.511e+09    0.0541203  1.40131e-23       6.1581
    1.512e+09    0.0536922  1.26796e-23      6.10938
    1.513e+09    0.0532674  1.14729e-23      6.06104
    1.514e+09    0.0528459  1.03811e-23      6.01309
    1.515e+09    0.0524278  9.39325e-24      5.96551
    1.516e+09     0.052013  8.49936e-24      5.91831
    1.517e+09    0.0516015  7.69054e-24      5.87149
    1.518e+09    0.0511932  6.95869e-24      5.82504
    1.519e+09    0.0507882  6.29648e-24      5.77895
     1.52e+09    0.0503864  5.69729e-24      5.73323
    1.521e+09    0.0499877  5.15512e-24      5.68787
    1.522e+09    0.0495922  4.66455e-24      5.64287
    1.523e+09    0.0491999  4.22066e-24      5.59822
    1.524e+09    0.0488106  3.81901e-24      5.55393
    1.525e+09    0.0484244  3.45558e-24      5.50999
    1.526e+09    0.0480413  3.12674e-24      5.46639
    1.527e+09    0.0476612  2.82919e-24      5.42314
    1.528e+09    0.0472841  2.55996e-24      5.38024
    1.529e+09      0.04691  2.31635e-24      5.33767
     1.53e+09    0.0465389  2.09592e-24      5.29544
    1.531e+09    0.0461707  1.89646e-24      5.25354
    1.532e+09    0.0458054  1.71599e-24      5.21198
    1.533e+09     0.045443  1.55269e-24      5.17074
    1.534e+09    0.0450834  1.40493e-24      5.12983
    1.535e+09    0.0447267  1.27124e-24      5.08925
    1.536e+09    0.0443729  1.15026e-24      5.04898
    1.537e+09    0.0440218   1.0408e-24      5.00903
    1.538e+09    0.0436735  9.41756e-25       4.9694
    1.539e+09     0.043328  8.52136e-25      4.93009
     1.54e+09    0.0429852  7.71045e-25      4.89108
    1.541e+09    0.0426451   6.9767e-25      4.85238
    1.542e+09    0.0423077  6.31278e-25      4.81399
    1.543e+09     0.041973  5.71204e-25       4.7759
    1.544e+09    0.0416409  5.16847e-25      4.73812
    1.545e+09    0.0413114  4.67662e-25      4.70063
    1.546e+09    0.0409846  4.23158e-25      4.66344
    1.547e+09    0.0406603  3.82889e-25      4.62654
    1.548e+09    0.0403386  3.46453e-25      4.58994
    1.549e+09    0.0400195  3.13483e-25      4.55363
     1.55e+09    0.0397028  2.83651e-25       4.5176
    1.551e+09    0.0393887  2.56658e-25      4.48186
    1.552e+09    0.0390771  2.32234e-25       4.4464
    1.553e+09    0.0387679  2.10134e-25      4.41122
    1.554e+09    0.0384612  1.90137e-25      4.37632
    1.555e+09    0.0381569  1.72043e-25      4.34169
    1.556e+09     0.037855  1.55671e-25      4.30734
    1.557e+09    0.0375555  1.40857e-25      4.27326
    1.558e+09    0.0372584  1.27453e-25      4.23945
    1.559e+09    0.0369636  1.15324e-25      5.32026
     1.56e+09    0.0366711   1.0435e-25      5.15465
    1.561e+09     0.036381  9.44194e-26      4.99419
    1.562e+09    0.0360932  8.54342e-26      4.83873
    1.563e+09    0.0358076   7.7304e-26      4.68811
    1.564e+09    0.0355243  6.99476e-26      4.54218
    1.565e+09    0.0352432  6.32912e-26      4.40079
    1.566e+09    0.0349644  5.72682e-26      4.26381
    1.567e+09    0.0346878  5.18185e-26      4.13108
    1.568e+09    0.0344133  4.68873e-26      4.00249
    1.569e+09     0.034141  4.24254e-26       3.8779
     1.57e+09    0.0338709  3.83881e-26      3.75719
    1.571e+09    0.0336029  3.47349e-26      3.64023
    1.572e+09    0.0333371  3.14295e-26      3.52692
    1.573e+09    0.0330733  2.84386e-26      3.41714
    1.574e+09    0.0328117  2.57323e-26      3.31077
    1.575e+09    0.0325521  2.32835e-26      3.20771
    1.576e+09    0.0322945  2.10678e-26      3.10786
    1.577e+09     0.032039  1.90629e-26      3.01112
    1.578e+09    0.0317855  1.72489e-26      2.91739
    1.579e+09     0.031534  1.56074e-26      2.82658
     1.58e+09    0.0312845  1.41222e-26      2.73859
    1.581e+09     0.031037  1.27783e-26      2.65334
    1.582e+09    0.0307915  1.15623e-26      2.57075
    1.583e+09    0.0305479   1.0462e-26      2.49073
    1.584e+09    0.0303062  9.46638e-27       2.4132
    1.585e+09    0.0300664  8.56553e-27      2.33808
    1.586e+09    0.0298285  7.75041e-27       2.2653
    1.587e+09    0.0295925  7.01286e-27      2.19478
    1.588e+09    0.0293584   6.3455e-27      2.12646
    1.589e+09    0.0291261  5.74165e-27      2.06027
     1.59e+09    0.0288957  5.19526e-27      2.02377
    1.591e+09     0.028667  4.70086e-27      2.00775
    1.592e+09    0.0284402  4.25352e-27      1.99187
    1.593e+09    0.0282152  3.84874e-27      1.97611
    1.594e+09     0.027992  3.48249e-27      1.96048
    1.595e+09    0.0277705  3.15108e-27      1.94496
    1.596e+09    0.0275508  2.85122e-27      1.92958
    1.597e+09    0.0273328  2.57989e-27      1.91431
    1.598e+09    0.0271166  2.33438e-27      1.89916
    1.599e+09     0.026902  2.11223e-27      1.88414
      1.6e+09    0.0266892  1.91123e-27      1.86923
    1.601e+09     0.026478  1.72935e-27      1.85444
    1.602e+09    0.0262685  1.56478e-27      1.83977
    1.603e+09    0.0260607  1.41587e-27      1.82521
    1.604e+09    0.0258545  1.28113e-27      1.81077
    1.605e+09      0.02565  1.15922e-27      1.79645
    1.606e+09     0.025447   1.0489e-27      1.78223
    1.607e+09    0.0252457  9.49088e-28      1.76813
    1.608e+09     0.025046   8.5877e-28      1.75414
    1.609e+09    0.0248478  7.77048e-28      1.74027
     1.61e+09    0.0246512  7.03102e-28       1.7265
    1.611e+09    0.0244562  6.36193e-28      1.71284
    1.612e+09    0.0242627  5.75651e-28      1.69929
    1.613e+09    0.0240707  5.20871e-28      1.68584
    1.614e+09    0.0238803  4.71303e-28       1.6725
    1.615e+09    0.0236913  4.26453e-28      1.65927
    1.616e+09    0.0235039   3.8587e-28      1.64614
    1.617e+09    0.0233179   3.4915e-28      1.63312
    1.618e+09    0.0231335  3.15924e-28       1.6202
    1.619e+09    0.0229504   2.8586e-28      1.60738
     1.62e+09    0.0227688  2.58657e-28      1.59466
    1.621e+09    0.0225887  2.34042e-28      1.58205
    1.622e+09      0.02241   2.1177e-28      1.56953
    1.623e+09    0.0222327  1.91618e-28      1.55711
    1.624e+09    0.0220568  1.73383e-28      1.54479
    1.625e+09    0.0218823  1.56883e-28      1.53257
    1.626e+09    0.0217091  1.41954e-28      1.52044
    1.627e+09    0.0215374  1.28445e-28      1.03467
    1.628e+09     0.021367  1.16222e-28        1.009
    1.629e+09    0.0211979  1.05162e-28     0.983972
     1.63e+09    0.0210302  9.51545e-29     0.959563
    1.631e+09    0.0208638  8.60993e-29      0.93576
    1.632e+09    0.0206988  7.79059e-29     0.912548
    1.633e+09     0.020535  7.04922e-29     0.889911
    1.634e+09    0.0203725  6.37839e-29     0.867836
    1.635e+09    0.0202113  5.77141e-29     0.846309
    1.636e+09    0.0200514  5.22219e-29     0.825315
    1.637e+09    0.0198928  4.72523e-29     0.804842
    1.638e+09    0.0197354  4.27557e-29     0.784877
    1.639e+09    0.0195793  3.86869e-29     0.765408
     1.64e+09    0.0194244  3.50054e-29     0.746421
    1.641e+09    0.0192707  3.16742e-29      0.73057
    1.642e+09    0.0191182    2.866e-29       0.7233
    1.643e+09    0.0189669  2.59326e-29     0.716103
    1.644e+09    0.0188169  2.34648e-29     0.708978
    1.645e+09     0.018668  2.12318e-29     0.701924
    1.646e+09    0.0185203  1.92114e-29     0.694939
    1.647e+09    0.0183738  1.73832e-29     0.688025
    1.648e+09    0.0182284  1.57289e-29     0.681179
    1.649e+09    0.0180842  1.42321e-29     0.880766
     1.65e+09    0.0179411  1.28778e-29     0.858918
    1.651e+09    0.0177992  1.16523e-29     0.837611
    1.652e+09    0.0176583  1.05434e-29     0.816834
    1.653e+09    0.0175186  9.54008e-30     0.796571
    1.654e+09      0.01738  8.63222e-30     0.776812
    1.655e+09    0.0172425  7.81075e-30     0.757542
    1.656e+09    0.0171061  7.06746e-30      0.73875
  1.65696e+09    0.0169708  6.39491e-30     0.720425
